{
    "resourceType": "Bundle",
    "type": "transaction",
    "entry": [
        {
            "fullUrl": "urn:uuid:b3fad0a8-b924-4650-9369-3fab13334836",
            "resource": {
                "resourceType": "Patient",
                "meta": {
                    "profile": [
                        "http://fhir.cqgc.ferlab.bio/StructureDefinition/cqgc-patient"
                    ]
                },
                "active": true,
                "birthDate": "2021-01-04",
                "extension": [
                    {
                        "url": "http://fhir.cqgc.ferlab.bio/StructureDefinition/is-proband",
                        "valueBoolean": true
                    },
                    {
                        "url": "http://fhir.cqgc.ferlab.bio/StructureDefinition/family-id",
                        "valueReference": {
                            "reference": "urn:uuid:65113115-8c06-4422-a010-f37c0c356a4e"
                        }
                    }
                ],
                "gender": "male",
                "generalPractitioner": [
                    {
                        "reference": "PractitionerRole/PROLE-78a60801-cbab-4064-93c6-d85aeadc1edb"
                    }
                ],
                "identifier": [
                    {
                        "type": {
                            "coding": [
                                {
                                    "code": "MR",
                                    "display": "Medical record number",
                                    "system": "http://terminology.hl7.org/CodeSystem/v2-0203"
                                }
                            ],
                            "text": "Numéro du dossier médical"
                        },
                        "value": "1324"
                    }
                ],
                "managingOrganization": {
                    "reference": "Organization/CHUSJ"
                },
                "name": [
                    {
                        "family": "Harvey",
                        "given": [
                            "Specter"
                        ]
                    }
                ]
            },
            "request": {
                "method": "POST",
                "url": "Patient"
            }
        },
        {
            "fullUrl": "urn:uuid:65113115-8c06-4422-a010-f37c0c356a4e",
            "resource": {
                "resourceType": "Group",
                "meta": {
                    "profile": [
                        "http://fhir.cqgc.ferlab.bio/StructureDefinition/cqgc-family-group"
                    ]
                },
                "type": "person",
                "actual": true,
                "member": [
                    {
                        "entity": {
                            "reference": "urn:uuid:b3fad0a8-b924-4650-9369-3fab13334836"
                        }
                    }
                ]
            },
            "request": {
                "method": "POST",
                "url": "Group"
            }
        }
    ]
}